Folder: EC2-Practical/Data/Task 3.2 EIS

File: EIS_0_C01.txt
freq/Hz	Re(Z)/Ohm	-Im(Z)/Ohm	|Z|/Ohm	Phase(Z)/deg	time/s	<Ewe>/V	<I>/mA	Cs/µF	Cp/µF	cycle number	I Range	|Ewe|/V	|I|/A	Ns	(Q-Qo)/mA.h	Re(Y)/Ohm-1	Im(Y)/Ohm-1	|Y|/Ohm-1	Phase(Y)/deg	Re(C)/nF	Im(C)/nF	|C|/nF	Phase(C)/deg	Re(M)	Im(M)	|M|	Phase(M)/deg	Re(Permittivity)	Im(Permittivity)	|Permittivity|	Phase(Permittivity)/deg	Re(Resistivity)/Ohm.cm	Im(Resistivity)/Ohm.cm	|Resistivity|/Ohm.cm	Phase(Resistivity)/deg	Re(Conductivity)/mS/cm	Im(Conductivity)/mS/cm	|Conductivity|/mS/cm	Phase(Conductivity)/deg	Tan(Delta)	Loss Angle(Delta)/deg	dq/mA.h	Pwe/W	Rwe/Ohm
100004	7.28163	2.73035	7.77669	-20.5542	31.6345	0.291647	0.005678	0.58289	0.0718508	1	10	0.00911366	0.00117192	0	-5.6135e-05	0.120403	0.0451469	0.128589	20.5542	71.8508	191.621	204.649	-69.4458	0.0000000E+000	0.0000000E+000	0.0000000E+000	69.4458	0.0000000E+000	0.0000000E+000	0.0000000E+000	-69.4458	0.0000000E+000	0.0000000E+000	0.0000000E+000	-20.5542	0.0000000E+000	0.0000000E+000	0.0000000E+000	20.5542	2.66693	69.4458	-5.6135e-05	1.65597e-06	51364.5
46633.8	7.53716	5.82241	9.52414	-37.6859	32.5085	0.291647	0.00594043	0.586161	0.219064	1	10	0.0108134	0.00113537	0	-5.45982e-05	0.0830914	0.0641876	0.104996	37.6859	219.064	283.58	358.339	-52.3141	0.0000000E+000	0.0000000E+000	0.0000000E+000	52.3141	0.0000000E+000	0.0000000E+000	0.0000000E+000	-52.3141	0.0000000E+000	0.0000000E+000	0.0000000E+000	-37.6859	0.0000000E+000	0.0000000E+000	0.0000000E+000	37.6859	1.29451	52.3141	9.65794e-07	1.73251e-06	49095.2
21748.8	8.17796	12.1326	14.6314	-56.0181	33.3835	0.291641	0.0051401	0.603159	0.41473	1	10	0.0105921	0.000723929	0	-5.11569e-05	0.0382008	0.0566735	0.0683461	56.0181	414.73	279.548	500.148	-33.9819	0.0000000E+000	0.0000000E+000	0.0000000E+000	33.9819	0.0000000E+000	0.0000000E+000	0.0000000E+000	-33.9819	0.0000000E+000	0.0000000E+000	0.0000000E+000	-56.0181	0.0000000E+000	0.0000000E+000	0.0000000E+000	56.0181	0.67405	33.9819	1.10695e-06	1.49906e-06	56738.4
10141.4	9.96316	24.9802	26.8937	-68.2558	33.9755	0.291644	0.00508611	0.628242	0.542019	1	10	0.0102257	0.000380225	0	-5.08651e-05	0.0137751	0.0345377	0.0371834	68.2558	542.019	216.181	583.54	-21.7442	0.0000000E+000	0.0000000E+000	0.0000000E+000	21.7442	0.0000000E+000	0.0000000E+000	0.0000000E+000	-21.7442	0.0000000E+000	0.0000000E+000	0.0000000E+000	-68.2558	0.0000000E+000	0.0000000E+000	0.0000000E+000	68.2558	0.398843	21.7442	1.78411e-07	1.48333e-06	57341.3
4726.51	15.1676	51.0149	53.222	-73.4419	35.0737	0.291671	-0.00333644	0.660058	0.606449	1	11	0.0108282	0.000203454	0	-4.91642e-05	0.0053547	0.01801	0.0187892	73.4419	606.449	180.308	632.686	-16.5581	0.0000000E+000	0.0000000E+000	0.0000000E+000	16.5581	0.0000000E+000	0.0000000E+000	0.0000000E+000	-16.5581	0.0000000E+000	0.0000000E+000	0.0000000E+000	-73.4419	0.0000000E+000	0.0000000E+000	0.0000000E+000	73.4419	0.297318	16.5581	4.92701e-07	-9.73141e-07	87419.9
2205.71	32.1256	101.255	106.229	-72.397	36.0067	0.291666	-0.00326788	0.71262	0.647445	1	11	0.00952264	8.96428e-05	0	-4.98036e-05	0.00284687	0.00897285	0.00941365	72.397	647.445	205.419	679.251	-17.603	0.0000000E+000	0.0000000E+000	0.0000000E+000	17.603	0.0000000E+000	0.0000000E+000	0.0000000E+000	-17.603	0.0000000E+000	0.0000000E+000	0.0000000E+000	-72.397	0.0000000E+000	0.0000000E+000	0.0000000E+000	72.397	0.317276	17.603	-3.3974e-07	-9.5313e-07	89252.5
1027.7	85.5527	187.067	205.702	-65.4236	36.9412	0.291666	-0.00324515	0.827862	0.68466	1	11	0.00926223	4.50274e-05	0	-5.06128e-05	0.00202189	0.004421	0.0048614	65.4236	684.66	313.121	752.864	-24.5764	0.0000000E+000	0.0000000E+000	0.0000000E+000	24.5764	0.0000000E+000	0.0000000E+000	0.0000000E+000	-24.5764	0.0000000E+000	0.0000000E+000	0.0000000E+000	-65.4236	0.0000000E+000	0.0000000E+000	0.0000000E+000	65.4236	0.457338	24.5764	-4.16066e-07	-9.46498e-07	89877.4
479.54	222.402	285.1	361.586	-52.0427	38.131	0.291676	-0.00410222	1.16412	0.723716	1	12	0.00933783	2.58246e-05	0	-5.17134e-05	0.00170104	0.00218058	0.00276559	52.0427	723.716	564.56	917.875	-37.9573	0.0000000E+000	0.0000000E+000	0.0000000E+000	37.9573	0.0000000E+000	0.0000000E+000	0.0000000E+000	-37.9573	0.0000000E+000	0.0000000E+000	0.0000000E+000	-52.0427	0.0000000E+000	0.0000000E+000	0.0000000E+000	52.0427	0.780085	37.9573	-7.05057e-07	-1.19652e-06	71102
223.64	431.276	299.591	525.123	-34.7863	39.067	0.291684	-0.00412039	2.37542	0.773175	1	12	0.00921883	1.75556e-05	0	-5.27598e-05	0.00156399	0.00108645	0.00190432	34.7863	773.175	1113.02	1355.22	-55.2137	0.0000000E+000	0.0000000E+000	0.0000000E+000	55.2137	0.0000000E+000	0.0000000E+000	0.0000000E+000	-55.2137	0.0000000E+000	0.0000000E+000	0.0000000E+000	-34.7863	0.0000000E+000	0.0000000E+000	0.0000000E+000	34.7863	1.43955	55.2137	-5.32477e-07	-1.20185e-06	70790.4
104.233	586.58	224.793	628.178	-20.9681	40.0112	0.291687	-0.00411088	6.79256	0.869826	1	12	0.00918463	1.46211e-05	0	-5.38162e-05	0.00148649	0.000569662	0.00159191	20.9681	869.826	2269.75	2430.71	-69.0319	0.0000000E+000	0.0000000E+000	0.0000000E+000	69.0319	0.0000000E+000	0.0000000E+000	0.0000000E+000	-69.0319	0.0000000E+000	0.0000000E+000	0.0000000E+000	-20.9681	0.0000000E+000	0.0000000E+000	0.0000000E+000	20.9681	2.60942	69.0319	-5.12451e-07	-1.19909e-06	70954.8
48.6457	665.185	150.08	681.905	-12.7143	40.9523	0.291697	-0.00401805	21.7998	1.05597	1	12	0.00917866	1.34603e-05	0	-5.48586e-05	0.00143052	0.000322757	0.00146648	12.7143	1055.97	4680.26	4797.9	-77.2857	0.0000000E+000	0.0000000E+000	0.0000000E+000	77.2857	0.0000000E+000	0.0000000E+000	0.0000000E+000	-77.2857	0.0000000E+000	0.0000000E+000	0.0000000E+000	-12.7143	0.0000000E+000	0.0000000E+000	0.0000000E+000	12.7143	4.43219	77.2857	-5.23795e-07	-1.17205e-06	72596.6
22.6581	707.402	111.301	716.105	-8.94144	41.9544	0.291695	-0.00398534	63.1103	1.52455	1	12	0.00918727	1.28295e-05	0	-5.59218e-05	0.00137947	0.000217042	0.00139644	8.94144	1524.55	9689.71	9808.91	-81.0586	0.0000000E+000	0.0000000E+000	0.0000000E+000	81.0586	0.0000000E+000	0.0000000E+000	0.0000000E+000	-81.0586	0.0000000E+000	0.0000000E+000	0.0000000E+000	-8.94144	0.0000000E+000	0.0000000E+000	0.0000000E+000	8.94144	6.35579	81.0586	-5.14989e-07	-1.1625e-06	73192
10.5717	739.763	105.846	747.297	-8.14266	42.8519	0.291685	-0.00402944	142.233	2.8534	1	12	0.00918429	1.229e-05	0	-5.68619e-05	0.00132467	0.000189534	0.00133816	8.14266	2853.4	19942.5	20145.6	-81.8573	0.0000000E+000	0.0000000E+000	0.0000000E+000	81.8573	0.0000000E+000	0.0000000E+000	0.0000000E+000	-81.8573	0.0000000E+000	0.0000000E+000	0.0000000E+000	-8.14266	0.0000000E+000	0.0000000E+000	0.0000000E+000	8.14266	6.98905	81.8573	-4.52967e-07	-1.17533e-06	72388.4
4.93213	780.351	122.354	789.885	-8.91102	43.6725	0.291688	-0.00400391	263.736	6.32811	1	12	0.0091826	1.16252e-05	0	-5.77646e-05	0.00125073	0.000196105	0.00126601	8.91102	6328.11	40359.7	40852.8	-81.089	0.0000000E+000	0.0000000E+000	0.0000000E+000	81.089	0.0000000E+000	0.0000000E+000	0.0000000E+000	-81.089	0.0000000E+000	0.0000000E+000	0.0000000E+000	-8.91102	0.0000000E+000	0.0000000E+000	0.0000000E+000	8.91102	6.37784	81.089	-4.03101e-07	-1.16789e-06	72850.8
2.29779	833.082	157.361	847.813	-10.6966	45.6471	0.291695	-0.00397319	440.161	15.1637	1	13	0.0091907	1.08405e-05	0	-6.00761e-05	0.00115901	0.000218926	0.0011795	10.6966	15163.7	80277.9	81697.5	-79.3034	0.0000000E+000	0.0000000E+000	0.0000000E+000	79.3034	0.0000000E+000	0.0000000E+000	0.0000000E+000	-79.3034	0.0000000E+000	0.0000000E+000	0.0000000E+000	-10.6966	0.0000000E+000	0.0000000E+000	0.0000000E+000	10.6966	5.29407	79.3034	-1.23476e-06	-1.15896e-06	73415.9
1.07315	903.25	223.215	930.422	-13.8811	49.0251	0.291703	-0.00394257	664.413	38.2406	1	13	0.00918968	9.87689e-06	0	-6.3434e-05	0.00104339	0.000257848	0.00107478	13.8811	38240.6	154742	159397	-76.1189	0.0000000E+000	0.0000000E+000	0.0000000E+000	76.1189	0.0000000E+000	0.0000000E+000	0.0000000E+000	-76.1189	0.0000000E+000	0.0000000E+000	0.0000000E+000	-13.8811	0.0000000E+000	0.0000000E+000	0.0000000E+000	13.8811	4.04655	76.1189	-1.87899e-06	-1.15006e-06	73988
0.500032	1011.99	315.181	1059.93	-17.2991	56.173	0.291695	-0.00375192	1009.86	89.2944	1	13	0.00918962	8.66998e-06	0	-7.04044e-05	0.000900778	0.000280545	0.000943454	17.2991	89294.4	286708	300292	-72.7009	0.0000000E+000	0.0000000E+000	0.0000000E+000	72.7009	0.0000000E+000	0.0000000E+000	0.0000000E+000	-72.7009	0.0000000E+000	0.0000000E+000	0.0000000E+000	-17.2991	0.0000000E+000	0.0000000E+000	0.0000000E+000	17.2991	3.21082	72.7009	-4.23651e-06	-1.09442e-06	77745.6