Folder: EC2-Practical/Data/Task 3.3 LSV (part 2)

File: LSV_EIS_1000rpm_02_PEIS_C01.txt
freq/Hz	Re(Z)/Ohm	-Im(Z)/Ohm	|Z|/Ohm	Phase(Z)/deg	time/s	<Ewe>/V	<I>/mA	Cs/µF	Cp/µF	cycle number	I Range	|Ewe|/V	|I|/A	Ns	(Q-Qo)/mA.h	Re(Y)/Ohm-1	Im(Y)/Ohm-1	|Y|/Ohm-1	Phase(Y)/deg	Re(C)/nF	Im(C)/nF	|C|/nF	Phase(C)/deg	Re(M)	Im(M)	|M|	Phase(M)/deg	Re(Permittivity)	Im(Permittivity)	|Permittivity|	Phase(Permittivity)/deg	Re(Resistivity)/Ohm.cm	Im(Resistivity)/Ohm.cm	|Resistivity|/Ohm.cm	Phase(Resistivity)/deg	Re(Conductivity)/mS/cm	Im(Conductivity)/mS/cm	|Conductivity|/mS/cm	Phase(Conductivity)/deg	Tan(Delta)	Loss Angle(Delta)/deg	dq/mA.h	Pwe/W	Rwe/Ohm
100004	6.76471	2.24906	7.12879	-18.3904	51.6689	0.291674	-0.0515546	0.707623	0.0704327	1	10	0.00907352	0.0012728	0	-2.0637e-05	0.133112	0.0442558	0.140276	18.3904	70.4327	211.847	223.248	-71.6096	0.0000000E+000	0.0000000E+000	0.0000000E+000	71.6096	0.0000000E+000	0.0000000E+000	0.0000000E+000	-71.6096	0.0000000E+000	0.0000000E+000	0.0000000E+000	-18.3904	0.0000000E+000	0.0000000E+000	0.0000000E+000	18.3904	3.00779	71.6096	-2.0637e-05	-1.50372e-05	5657.57
46596.6	6.98722	4.88167	8.52361	-34.9404	52.5429	0.29167	-0.0511061	0.699676	0.229502	1	10	0.0107631	0.00126274	0	-2.97906e-05	0.0961738	0.0671925	0.117321	34.9404	229.502	328.49	400.721	-55.0596	0.0000000E+000	0.0000000E+000	0.0000000E+000	55.0596	0.0000000E+000	0.0000000E+000	0.0000000E+000	-55.0596	0.0000000E+000	0.0000000E+000	0.0000000E+000	-34.9404	0.0000000E+000	0.0000000E+000	0.0000000E+000	34.9404	1.43132	55.0596	-3.0136e-06	-1.49061e-05	5707.15
21711.7	7.5845	10.1988	12.7098	-53.363	53.4169	0.291674	-0.0512047	0.718752	0.462802	1	10	0.0106234	0.000835842	0	-4.14356e-05	0.0469514	0.0631348	0.0786794	53.363	462.802	344.172	576.749	-36.637	0.0000000E+000	0.0000000E+000	0.0000000E+000	36.637	0.0000000E+000	0.0000000E+000	0.0000000E+000	-36.637	0.0000000E+000	0.0000000E+000	0.0000000E+000	-53.363	0.0000000E+000	0.0000000E+000	0.0000000E+000	53.363	0.743669	36.637	-5.90715e-06	-1.49351e-05	5696.22
10113.6	9.33639	21.0124	22.9932	-66.0431	54.1489	0.291677	-0.0506929	0.748929	0.625448	1	10	0.00953245	0.000414577	0	-5.08957e-05	0.0176596	0.0397444	0.0434911	66.0431	625.448	277.904	684.41	-23.9569	0.0000000E+000	0.0000000E+000	0.0000000E+000	23.9569	0.0000000E+000	0.0000000E+000	0.0000000E+000	-23.9569	0.0000000E+000	0.0000000E+000	0.0000000E+000	-66.0431	0.0000000E+000	0.0000000E+000	0.0000000E+000	66.0431	0.444328	23.9569	-3.73416e-06	-1.4786e-05	5753.8
4716.51	14.7739	42.6696	45.1549	-70.9021	55.6461	0.291699	-0.0614123	0.790826	0.706169	1	11	0.0100616	0.000222823	0	-7.18209e-05	0.00724579	0.0209271	0.022146	70.9021	706.169	244.503	747.3	-19.0979	0.0000000E+000	0.0000000E+000	0.0000000E+000	19.0979	0.0000000E+000	0.0000000E+000	0.0000000E+000	-19.0979	0.0000000E+000	0.0000000E+000	0.0000000E+000	-70.9021	0.0000000E+000	0.0000000E+000	0.0000000E+000	70.9021	0.346239	19.0979	-1.4478e-05	-1.79139e-05	4749.85
2195.7	32.7419	83.1914	89.4027	-68.5167	56.8051	0.291697	-0.0615032	0.871301	0.754439	1	11	0.0098458	0.000110129	0	-9.13972e-05	0.00409641	0.0104082	0.0111853	68.5167	754.439	296.927	810.767	-21.4833	0.0000000E+000	0.0000000E+000	0.0000000E+000	21.4833	0.0000000E+000	0.0000000E+000	0.0000000E+000	-21.4833	0.0000000E+000	0.0000000E+000	0.0000000E+000	-68.5167	0.0000000E+000	0.0000000E+000	0.0000000E+000	68.5167	0.393573	21.4833	-1.1656e-05	-1.79403e-05	4742.8
1024.02	86.2742	143.338	167.299	-58.9565	57.7384	0.291691	-0.0614995	1.08431	0.795952	1	11	0.00951801	5.68922e-05	0	-0.000107134	0.00308244	0.00512123	0.00597732	58.9565	795.953	479.079	929.009	-31.0435	0.0000000E+000	0.0000000E+000	0.0000000E+000	31.0435	0.0000000E+000	0.0000000E+000	0.0000000E+000	-31.0435	0.0000000E+000	0.0000000E+000	0.0000000E+000	-58.9565	0.0000000E+000	0.0000000E+000	0.0000000E+000	58.9565	0.601894	31.0435	-7.84404e-06	-1.79389e-05	4742.98
476.984	197.139	183.624	269.41	-42.9672	58.6743	0.291689	-0.0615787	1.81713	0.844149	1	11	0.00945091	3.508e-05	0	-0.000122804	0.0027161	0.0025299	0.00371181	42.9672	844.149	906.278	1238.52	-47.0328	0.0000000E+000	0.0000000E+000	0.0000000E+000	47.0328	0.0000000E+000	0.0000000E+000	0.0000000E+000	-47.0328	0.0000000E+000	0.0000000E+000	0.0000000E+000	-42.9672	0.0000000E+000	0.0000000E+000	0.0000000E+000	42.9672	1.0736	47.0328	-7.83573e-06	-1.79618e-05	4736.85
222.348	312.595	159.868	351.103	-27.0862	59.859	0.291705	-0.0623108	4.47739	0.928282	1	12	0.00948426	2.70128e-05	0	-0.000142396	0.00253579	0.00129686	0.00284817	27.0862	928.282	1815.1	2038.7	-62.9138	0.0000000E+000	0.0000000E+000	0.0000000E+000	62.9138	0.0000000E+000	0.0000000E+000	0.0000000E+000	-62.9138	0.0000000E+000	0.0000000E+000	0.0000000E+000	-27.0862	0.0000000E+000	0.0000000E+000	0.0000000E+000	27.0862	1.95533	62.9138	-7.8614e-06	-1.81764e-05	4681.46
103.575	379.798	111.231	395.751	-16.3237	60.7949	0.291714	-0.0622677	13.8146	1.09131	1	12	0.00945236	2.38846e-05	0	-0.000158274	0.00242498	0.000710203	0.00252684	16.3237	1091.31	3726.27	3882.79	-73.6763	0.0000000E+000	0.0000000E+000	0.0000000E+000	73.6763	0.0000000E+000	0.0000000E+000	0.0000000E+000	-73.6763	0.0000000E+000	0.0000000E+000	0.0000000E+000	-16.3237	0.0000000E+000	0.0000000E+000	0.0000000E+000	16.3237	3.41449	73.6763	-8.03085e-06	-1.81643e-05	4684.84
48.2849	412.955	81.0123	420.826	-11.0992	61.7403	0.291709	-0.0622606	40.6872	1.50784	1	12	0.00944054	2.24333e-05	0	-0.000174348	0.00233183	0.000457452	0.00237628	11.0992	1507.84	7686.1	7832.6	-78.9008	0.0000000E+000	0.0000000E+000	0.0000000E+000	78.9008	0.0000000E+000	0.0000000E+000	0.0000000E+000	-78.9008	0.0000000E+000	0.0000000E+000	0.0000000E+000	-11.0992	0.0000000E+000	0.0000000E+000	0.0000000E+000	11.0992	5.09743	78.9008	-8.19359e-06	-1.8162e-05	4685.29
22.482	438.042	73.276	444.129	-9.49655	62.6551	0.291705	-0.0622619	96.6102	2.62984	1	12	0.00944325	2.12624e-05	0	-0.000189864	0.00222074	0.000371488	0.0022516	9.49655	2629.84	15721.1	15939.6	-80.5034	0.0000000E+000	0.0000000E+000	0.0000000E+000	80.5034	0.0000000E+000	0.0000000E+000	0.0000000E+000	-80.5034	0.0000000E+000	0.0000000E+000	0.0000000E+000	-9.49655	0.0000000E+000	0.0000000E+000	0.0000000E+000	9.49655	5.97797	80.5034	-7.13247e-06	-1.81621e-05	4685.13
10.4866	462.883	82.2872	470.14	-10.0802	63.5629	0.291711	-0.0622328	184.44	5.6502	1	12	0.00944076	2.00807e-05	0	-0.000205362	0.00209419	0.000372286	0.00212702	10.0802	5650.2	31783.6	32281.9	-79.9198	0.0000000E+000	0.0000000E+000	0.0000000E+000	79.9198	0.0000000E+000	0.0000000E+000	0.0000000E+000	-79.9198	0.0000000E+000	0.0000000E+000	0.0000000E+000	-10.0802	0.0000000E+000	0.0000000E+000	0.0000000E+000	10.0802	5.62522	79.9198	-7.71477e-06	-1.8154e-05	4687.42
4.88281	500.798	104.956	511.678	-11.8366	64.391	0.291701	-0.062207	310.558	13.0666	1	12	0.0094387	1.84466e-05	0	-0.000219505	0.0019128	0.000400879	0.00195435	11.8366	13066.6	62347.5	63702	-78.1634	0.0000000E+000	0.0000000E+000	0.0000000E+000	78.1634	0.0000000E+000	0.0000000E+000	0.0000000E+000	-78.1634	0.0000000E+000	0.0000000E+000	0.0000000E+000	-11.8366	0.0000000E+000	0.0000000E+000	0.0000000E+000	11.8366	4.7715	78.1634	-8.19284e-06	-1.81459e-05	4689.21
2.27637	565.883	141.96	583.418	-14.0829	66.0316	0.291717	-0.062051	492.505	29.1598	1	12	0.00943941	1.61795e-05	0	-0.00024711	0.00166252	0.000417069	0.00171404	14.0829	29159.8	116237	119839	-75.9171	0.0000000E+000	0.0000000E+000	0.0000000E+000	75.9171	0.0000000E+000	0.0000000E+000	0.0000000E+000	-75.9171	0.0000000E+000	0.0000000E+000	0.0000000E+000	-14.0829	0.0000000E+000	0.0000000E+000	0.0000000E+000	14.0829	3.9862	75.9171	-1.64164e-05	-1.81013e-05	4701.24
1.06148	668.61	158.179	687.066	-13.3103	69.4437	0.291719	-0.0619849	947.891	50.2412	1	12	0.00943722	1.37355e-05	0	-0.00030635	0.00141637	0.000335083	0.00145546	13.3103	50241.2	212365	218227	-76.6897	0.0000000E+000	0.0000000E+000	0.0000000E+000	76.6897	0.0000000E+000	0.0000000E+000	0.0000000E+000	-76.6897	0.0000000E+000	0.0000000E+000	0.0000000E+000	-13.3103	0.0000000E+000	0.0000000E+000	0.0000000E+000	13.3103	4.22691	76.6897	-3.50266e-05	-1.80822e-05	4706.28
0.494337	758.525	111.752	766.713	-8.38102	76.6751	0.291718	-0.0619148	2880.98	61.2053	1	12	0.00944076	1.23133e-05	0	-0.000430104	0.00129034	0.000190104	0.00130427	8.38102	61205.3	415434	419918	-81.619	0.0000000E+000	0.0000000E+000	0.0000000E+000	81.619	0.0000000E+000	0.0000000E+000	0.0000000E+000	-81.619	0.0000000E+000	0.0000000E+000	0.0000000E+000	-8.38102	0.0000000E+000	0.0000000E+000	0.0000000E+000	8.38102	6.78754	81.619	-7.31937e-05	-1.80617e-05	4711.6
0.230321	795.2	61.0785	797.542	-4.39221	92.102	0.291719	-0.0618253	11313.5	66.354	1	12	0.00943736	1.1833e-05	0	-0.000692419	0.00125017	9.60243e-05	0.00125385	4.39221	66353.9	863883	866427	-85.6078	0.0000000E+000	0.0000000E+000	0.0000000E+000	85.6078	0.0000000E+000	0.0000000E+000	0.0000000E+000	-85.6078	0.0000000E+000	0.0000000E+000	0.0000000E+000	-4.39221	0.0000000E+000	0.0000000E+000	0.0000000E+000	4.39221	13.0193	85.6078	-0.000155745	-1.80356e-05	4718.44
0.107379	802.532	27.89	803.017	-1.99037	125.104	0.291722	-0.0617962	53143.6	64.1059	1	12	0.00943765	1.17527e-05	0	-0.00125765	0.00124455	4.32513e-05	0.0012453	1.99037	64106	1.84464e+06	1.84576e+06	-88.0096	0.0000000E+000	0.0000000E+000	0.0000000E+000	88.0096	0.0000000E+000	0.0000000E+000	0.0000000E+000	-88.0096	0.0000000E+000	0.0000000E+000	0.0000000E+000	-1.99037	0.0000000E+000	0.0000000E+000	0.0000000E+000	1.99037	28.7749	88.0096	-0.000336581	-1.80273e-05	4720.71
0.0500352	805.148	13.0601	805.254	-0.929296	195.851	0.291721	-0.0617745	243556	64.0654	1	12	0.00943835	1.1721e-05	0	-0.00248046	0.00124168	2.01409e-05	0.00124184	0.929296	64065.6	3.94961e+06	3.95013e+06	-89.0707	0.0000000E+000	0.0000000E+000	0.0000000E+000	89.0707	0.0000000E+000	0.0000000E+000	0.0000000E+000	-89.0707	0.0000000E+000	0.0000000E+000	0.0000000E+000	-0.929296	0.0000000E+000	0.0000000E+000	0.0000000E+000	0.929296	61.6497	89.0707	-0.000727354	-1.80209e-05	4722.35

File: LSV_EIS_1501rpm_02_PEIS_C01.txt
freq/Hz	Re(Z)/Ohm	-Im(Z)/Ohm	|Z|/Ohm	Phase(Z)/deg	time/s	<Ewe>/V	<I>/mA	Cs/µF	Cp/µF	cycle number	I Range	|Ewe|/V	|I|/A	Ns	(Q-Qo)/mA.h	Re(Y)/Ohm-1	Im(Y)/Ohm-1	|Y|/Ohm-1	Phase(Y)/deg	Re(C)/nF	Im(C)/nF	|C|/nF	Phase(C)/deg	Re(M)	Im(M)	|M|	Phase(M)/deg	Re(Permittivity)	Im(Permittivity)	|Permittivity|	Phase(Permittivity)/deg	Re(Resistivity)/Ohm.cm	Im(Resistivity)/Ohm.cm	|Resistivity|/Ohm.cm	Phase(Resistivity)/deg	Re(Conductivity)/mS/cm	Im(Conductivity)/mS/cm	|Conductivity|/mS/cm	Phase(Conductivity)/deg	Tan(Delta)	Loss Angle(Delta)/deg	dq/mA.h	Pwe/W	Rwe/Ohm
100004	6.74564	2.27285	7.11825	-18.6205	51.6689	0.291664	-0.0576762	0.700218	0.0713884	1	10	0.00907027	0.00127423	0	-2.38551e-05	0.13313	0.0448563	0.140484	18.6205	71.3884	211.875	223.579	-71.3795	0.0000000E+000	0.0000000E+000	0.0000000E+000	71.3795	0.0000000E+000	0.0000000E+000	0.0000000E+000	-71.3795	0.0000000E+000	0.0000000E+000	0.0000000E+000	-18.6205	0.0000000E+000	0.0000000E+000	0.0000000E+000	18.6205	2.96792	71.3795	-2.38551e-05	-1.68221e-05	5056.93
46596.6	6.96593	4.93178	8.53502	-35.298	52.5439	0.291657	-0.0578363	0.692567	0.231238	1	10	0.0108079	0.0012663	0	-3.77886e-05	0.0956246	0.0677009	0.117164	35.298	231.238	326.614	400.185	-54.702	0.0000000E+000	0.0000000E+000	0.0000000E+000	54.702	0.0000000E+000	0.0000000E+000	0.0000000E+000	-54.702	0.0000000E+000	0.0000000E+000	0.0000000E+000	-35.298	0.0000000E+000	0.0000000E+000	0.0000000E+000	35.298	1.41246	54.702	-5.99979e-06	-1.68684e-05	5042.81
21711.7	7.56754	10.3222	12.7991	-53.7537	53.4179	0.291672	-0.0577414	0.710155	0.461895	1	10	0.0106785	0.000834318	0	-5.37075e-05	0.0461954	0.0630111	0.0781307	53.7537	461.895	338.629	572.728	-36.2463	0.0000000E+000	0.0000000E+000	0.0000000E+000	36.2463	0.0000000E+000	0.0000000E+000	0.0000000E+000	-36.2463	0.0000000E+000	0.0000000E+000	0.0000000E+000	-53.7537	0.0000000E+000	0.0000000E+000	0.0000000E+000	53.7537	0.733131	36.2463	-8.51465e-06	-1.68415e-05	5051.35
10113.6	9.32979	21.3004	23.254	-66.3461	54.1509	0.291664	-0.0586087	0.738803	0.619877	1	10	0.00952496	0.000409604	0	-6.3897e-05	0.0172534	0.0393904	0.0430033	66.3461	619.877	271.513	676.733	-23.6539	0.0000000E+000	0.0000000E+000	0.0000000E+000	23.6539	0.0000000E+000	0.0000000E+000	0.0000000E+000	-23.6539	0.0000000E+000	0.0000000E+000	0.0000000E+000	-66.3461	0.0000000E+000	0.0000000E+000	0.0000000E+000	66.3461	0.438011	23.6539	-4.2121e-06	-1.7094e-05	4976.46
4716.51	14.8185	43.2579	45.7257	-71.0905	55.6471	0.291695	-0.0678671	0.78007	0.698144	1	11	0.0100347	0.000219454	0	-8.77684e-05	0.00708737	0.0206893	0.0218696	71.0905	698.144	239.158	737.971	-18.9095	0.0000000E+000	0.0000000E+000	0.0000000E+000	18.9095	0.0000000E+000	0.0000000E+000	0.0000000E+000	-18.9095	0.0000000E+000	0.0000000E+000	0.0000000E+000	-71.0905	0.0000000E+000	0.0000000E+000	0.0000000E+000	71.0905	0.342562	18.9095	-1.61521e-05	-1.97965e-05	4298.04
2195.7	33.1903	84.2963	90.5951	-68.5088	56.8061	0.291688	-0.0678233	0.85988	0.744468	1	11	0.00997264	0.000110079	0	-0.000109285	0.00404391	0.0102707	0.0110381	68.5088	744.468	293.122	800.096	-21.4912	0.0000000E+000	0.0000000E+000	0.0000000E+000	21.4912	0.0000000E+000	0.0000000E+000	0.0000000E+000	-21.4912	0.0000000E+000	0.0000000E+000	0.0000000E+000	-68.5088	0.0000000E+000	0.0000000E+000	0.0000000E+000	68.5088	0.393734	21.4912	-1.28717e-05	-1.97833e-05	4300.71
1024.02	88.1899	144.8	169.542	-58.6566	57.7394	0.291699	-0.0677814	1.07336	0.782938	1	11	0.00965039	5.69204e-05	0	-0.000126623	0.00306807	0.00503749	0.00589825	58.6566	782.938	476.846	916.719	-31.3434	0.0000000E+000	0.0000000E+000	0.0000000E+000	31.3434	0.0000000E+000	0.0000000E+000	0.0000000E+000	-31.3434	0.0000000E+000	0.0000000E+000	0.0000000E+000	-58.6566	0.0000000E+000	0.0000000E+000	0.0000000E+000	58.6566	0.609047	31.3434	-8.63606e-06	-1.97718e-05	4303.53
476.984	200.087	183.365	271.399	-42.5029	58.6753	0.291688	-0.06789	1.8197	0.830643	1	11	0.00957641	3.52853e-05	0	-0.000143917	0.00271645	0.00248942	0.00368461	42.5029	830.643	906.396	1229.44	-47.4971	0.0000000E+000	0.0000000E+000	0.0000000E+000	47.4971	0.0000000E+000	0.0000000E+000	0.0000000E+000	-47.4971	0.0000000E+000	0.0000000E+000	0.0000000E+000	-42.5029	0.0000000E+000	0.0000000E+000	0.0000000E+000	42.5029	1.0912	47.4971	-8.64723e-06	-1.98027e-05	4296.47
222.348	314.741	157.846	352.104	-26.6343	59.861	0.291708	-0.0686124	4.53474	0.911336	1	12	0.00960722	2.72852e-05	0	-0.000165516	0.0025387	0.00127318	0.00284007	26.6343	911.336	1817.18	2032.9	-63.3657	0.0000000E+000	0.0000000E+000	0.0000000E+000	63.3657	0.0000000E+000	0.0000000E+000	0.0000000E+000	-63.3657	0.0000000E+000	0.0000000E+000	0.0000000E+000	-26.6343	0.0000000E+000	0.0000000E+000	0.0000000E+000	26.6343	1.99397	63.3657	-8.66497e-06	-2.00148e-05	4251.53
103.575	379.386	109.013	394.737	-16.0314	60.7969	0.29171	-0.0685684	14.0958	1.07504	1	12	0.00957274	2.42509e-05	0	-0.000183043	0.00243481	0.000699617	0.00253333	16.0314	1075.04	3741.37	3892.76	-73.9686	0.0000000E+000	0.0000000E+000	0.0000000E+000	73.9686	0.0000000E+000	0.0000000E+000	0.0000000E+000	-73.9686	0.0000000E+000	0.0000000E+000	0.0000000E+000	-16.0314	0.0000000E+000	0.0000000E+000	0.0000000E+000	16.0314	3.48021	73.9686	-8.87211e-06	-2.00021e-05	4254.3
48.2849	411.601	79.9472	419.293	-10.992	61.7412	0.291708	-0.0684908	41.2292	1.49891	1	12	0.00957018	2.28246e-05	0	-0.000200746	0.00234121	0.000454745	0.00238497	10.992	1498.91	7717.02	7861.24	-79.008	0.0000000E+000	0.0000000E+000	0.0000000E+000	79.008	0.0000000E+000	0.0000000E+000	0.0000000E+000	-79.008	0.0000000E+000	0.0000000E+000	0.0000000E+000	-10.992	0.0000000E+000	0.0000000E+000	0.0000000E+000	10.992	5.1484	79.008	-9.0109e-06	-1.99794e-05	4259.09
22.482	435.402	71.2842	441.199	-9.298	62.657	0.291706	-0.0685865	99.3097	2.59245	1	12	0.00956443	2.16783e-05	0	-0.000217847	0.00223677	0.000366205	0.00226655	9.298	2592.45	15834.6	16045.4	-80.702	0.0000000E+000	0.0000000E+000	0.0000000E+000	80.702	0.0000000E+000	0.0000000E+000	0.0000000E+000	-80.702	0.0000000E+000	0.0000000E+000	0.0000000E+000	-9.298	0.0000000E+000	0.0000000E+000	0.0000000E+000	9.298	6.10797	80.702	-7.84399e-06	-2.00071e-05	4253.11
10.4866	462.141	80.7091	469.136	-9.90632	63.5648	0.291704	-0.0685776	188.046	5.56559	1	12	0.00956911	2.03973e-05	0	-0.00023485	0.0020998	0.000366712	0.00213158	9.90632	5565.6	31868.7	32351	-80.0937	0.0000000E+000	0.0000000E+000	0.0000000E+000	80.0937	0.0000000E+000	0.0000000E+000	0.0000000E+000	-80.0937	0.0000000E+000	0.0000000E+000	0.0000000E+000	-9.90632	0.0000000E+000	0.0000000E+000	0.0000000E+000	9.90632	5.72601	80.0937	-8.42946e-06	-2.00043e-05	4253.63
4.88281	504.011	105.073	514.847	-11.7759	64.392	0.291705	-0.0685432	310.214	12.9206	1	12	0.00956872	1.85856e-05	0	-0.000250389	0.00190144	0.000396399	0.00194232	11.7759	12920.6	61977.5	63309.9	-78.2241	0.0000000E+000	0.0000000E+000	0.0000000E+000	78.2241	0.0000000E+000	0.0000000E+000	0.0000000E+000	-78.2241	0.0000000E+000	0.0000000E+000	0.0000000E+000	-11.7759	0.0000000E+000	0.0000000E+000	0.0000000E+000	11.7759	4.79679	78.2241	-8.87341e-06	-1.99944e-05	4255.78
2.27637	572.605	131.725	587.561	-12.9552	66.0306	0.291715	-0.0683432	530.774	26.6771	1	12	0.0095639	1.62773e-05	0	-0.000281059	0.00165863	0.000381559	0.00170195	12.9552	26677.1	115965	118994	-77.0448	0.0000000E+000	0.0000000E+000	0.0000000E+000	77.0448	0.0000000E+000	0.0000000E+000	0.0000000E+000	-77.0448	0.0000000E+000	0.0000000E+000	0.0000000E+000	-12.9552	0.0000000E+000	0.0000000E+000	0.0000000E+000	12.9552	4.34698	77.0448	-1.82791e-05	-1.99368e-05	4268.38
1.06148	659.821	114.239	669.637	-9.8226	69.4417	0.291716	-0.0683266	1312.48	38.1982	1	12	0.00956372	1.42819e-05	0	-0.000346117	0.00147145	0.000254762	0.00149335	9.8226	38198.2	220625	223907	-80.1774	0.0000000E+000	0.0000000E+000	0.0000000E+000	80.1774	0.0000000E+000	0.0000000E+000	0.0000000E+000	-80.1774	0.0000000E+000	0.0000000E+000	0.0000000E+000	-9.8226	0.0000000E+000	0.0000000E+000	0.0000000E+000	9.8226	5.7758	80.1774	-3.83701e-05	-1.99319e-05	4269.44
0.494337	709.704	66.2504	712.789	-5.33307	76.6723	0.291717	-0.0682401	4859.69	41.982	1	12	0.00956484	1.34189e-05	0	-0.000481925	0.00139687	0.000130397	0.00140294	5.33307	41982	449730	451685	-84.6669	0.0000000E+000	0.0000000E+000	0.0000000E+000	84.6669	0.0000000E+000	0.0000000E+000	0.0000000E+000	-84.6669	0.0000000E+000	0.0000000E+000	0.0000000E+000	-5.33307	0.0000000E+000	0.0000000E+000	0.0000000E+000	5.33307	10.7124	84.6669	-8.03873e-05	-1.99068e-05	4274.86
0.230321	722.275	31.9249	722.98	-2.53085	92.0989	0.291705	-0.0681706	21644.9	42.2049	1	12	0.0095634	1.32277e-05	0	-0.000771502	0.00138181	6.10769e-05	0.00138316	2.53085	42204.9	954851	955784	-87.4691	0.0000000E+000	0.0000000E+000	0.0000000E+000	87.4691	0.0000000E+000	0.0000000E+000	0.0000000E+000	-87.4691	0.0000000E+000	0.0000000E+000	0.0000000E+000	-2.53085	0.0000000E+000	0.0000000E+000	0.0000000E+000	2.53085	22.6242	87.4691	-0.000172164	-1.98857e-05	4279.04
0.107379	727.07	15.0532	727.226	-1.18608	125.101	0.291704	-0.0681041	98462.3	42.188	1	12	0.0095634	1.31505e-05	0	-0.00139727	0.00137479	2.84636e-05	0.00137509	1.18608	42188.1	2.03768e+06	2.03812e+06	-88.8139	0.0000000E+000	0.0000000E+000	0.0000000E+000	88.8139	0.0000000E+000	0.0000000E+000	0.0000000E+000	-88.8139	0.0000000E+000	0.0000000E+000	0.0000000E+000	-1.18608	0.0000000E+000	0.0000000E+000	0.0000000E+000	1.18608	48.3	88.8139	-0.000372652	-1.98663e-05	4283.21
0.0500352	728.112	6.50807	728.142	-0.512112	195.848	0.291703	-0.0680598	488756	39.045	1	12	0.00956211	1.31322e-05	0	-0.00274587	0.0013733	1.2275e-05	0.00137336	0.512112	39045.2	4.36829e+06	4.36846e+06	-89.4879	0.0000000E+000	0.0000000E+000	0.0000000E+000	89.4879	0.0000000E+000	0.0000000E+000	0.0000000E+000	-89.4879	0.0000000E+000	0.0000000E+000	0.0000000E+000	-0.512112	0.0000000E+000	0.0000000E+000	0.0000000E+000	0.512112	111.878	89.4879	-0.000801229	-1.98533e-05	4285.98