Folder: EC2-Practical/Data/Task 3.3 LSV

File: LSV_EIS_251rpm_02_PEIS_C01.txt
freq/Hz	Re(Z)/Ohm	-Im(Z)/Ohm	|Z|/Ohm	Phase(Z)/deg	time/s	<Ewe>/V	<I>/mA	Cs/µF	Cp/µF	cycle number	I Range	|Ewe|/V	|I|/A	Ns	(Q-Qo)/mA.h	Re(Y)/Ohm-1	Im(Y)/Ohm-1	|Y|/Ohm-1	Phase(Y)/deg	Re(C)/nF	Im(C)/nF	|C|/nF	Phase(C)/deg	Re(M)	Im(M)	|M|	Phase(M)/deg	Re(Permittivity)	Im(Permittivity)	|Permittivity|	Phase(Permittivity)/deg	Re(Resistivity)/Ohm.cm	Im(Resistivity)/Ohm.cm	|Resistivity|/Ohm.cm	Phase(Resistivity)/deg	Re(Conductivity)/mS/cm	Im(Conductivity)/mS/cm	|Conductivity|/mS/cm	Phase(Conductivity)/deg	Tan(Delta)	Loss Angle(Delta)/deg	dq/mA.h	Pwe/W	Rwe/Ohm
100004	6.78074	2.14346	7.11146	-17.5423	51.6699	0.291691	-0.0301319	0.742485	0.0674532	1	10	0.00903577	0.00127059	0	-1.20178e-05	0.134079	0.0423837	0.140618	17.5423	67.4532	213.385	223.792	-72.4577	0.0000000E+000	0.0000000E+000	0.0000000E+000	72.4577	0.0000000E+000	0.0000000E+000	0.0000000E+000	-72.4577	0.0000000E+000	0.0000000E+000	0.0000000E+000	-17.5423	0.0000000E+000	0.0000000E+000	0.0000000E+000	17.5423	3.16345	72.4577	-1.20178e-05	-8.7892e-06	9680.44
46596.6	7.02073	4.64337	8.41734	-33.4798	52.5439	0.291676	-0.0313008	0.735584	0.223846	1	10	0.0107818	0.0012809	0	-1.88026e-05	0.0990907	0.0655366	0.118802	33.4798	223.846	338.453	405.78	-56.5202	0.0000000E+000	0.0000000E+000	0.0000000E+000	56.5202	0.0000000E+000	0.0000000E+000	0.0000000E+000	-56.5202	0.0000000E+000	0.0000000E+000	0.0000000E+000	-33.4798	0.0000000E+000	0.0000000E+000	0.0000000E+000	33.4798	1.51199	56.5202	-4.76209e-06	-9.12971e-06	9318.5
21711.7	7.61392	9.66313	12.3024	-51.7642	53.4179	0.291679	-0.0304093	0.758592	0.468024	1	10	0.0106356	0.000864518	0	-2.49808e-05	0.0503074	0.0638472	0.0812853	51.7642	468.024	368.772	595.852	-38.2358	0.0000000E+000	0.0000000E+000	0.0000000E+000	38.2358	0.0000000E+000	0.0000000E+000	0.0000000E+000	-38.2358	0.0000000E+000	0.0000000E+000	0.0000000E+000	-51.7642	0.0000000E+000	0.0000000E+000	0.0000000E+000	51.7642	0.787935	38.2358	-3.19583e-06	-8.86975e-06	9591.78
10113.6	9.31232	19.8113	21.8908	-64.8241	54.1509	0.291682	-0.0311054	0.794332	0.650587	1	10	0.00971191	0.000443652	0	-3.03834e-05	0.0194327	0.0413418	0.0456812	64.8241	650.587	305.808	718.875	-25.1759	0.0000000E+000	0.0000000E+000	0.0000000E+000	25.1759	0.0000000E+000	0.0000000E+000	0.0000000E+000	-25.1759	0.0000000E+000	0.0000000E+000	0.0000000E+000	-64.8241	0.0000000E+000	0.0000000E+000	0.0000000E+000	64.8241	0.47005	25.1759	-2.66775e-06	-9.07289e-06	9377.22
4716.51	14.4202	40.1389	42.6506	-70.2388	55.6961	0.291714	-0.0411006	0.840685	0.744585	1	11	0.0101742	0.000238548	0	-4.39109e-05	0.00792721	0.0220656	0.0234463	70.2388	744.585	267.498	791.177	-19.7612	0.0000000E+000	0.0000000E+000	0.0000000E+000	19.7612	0.0000000E+000	0.0000000E+000	0.0000000E+000	-19.7612	0.0000000E+000	0.0000000E+000	0.0000000E+000	-70.2388	0.0000000E+000	0.0000000E+000	0.0000000E+000	70.2388	0.359257	19.7612	-1.11814e-05	-1.19896e-05	7097.56
2195.7	30.9165	78.1615	84.0539	-68.4189	56.8561	0.291696	-0.0411278	0.927371	0.801907	1	11	0.00987427	0.000117475	0	-5.70095e-05	0.00437598	0.0110631	0.0118971	68.4189	801.907	317.192	862.361	-21.5811	0.0000000E+000	0.0000000E+000	0.0000000E+000	21.5811	0.0000000E+000	0.0000000E+000	0.0000000E+000	-21.5811	0.0000000E+000	0.0000000E+000	0.0000000E+000	-68.4189	0.0000000E+000	0.0000000E+000	0.0000000E+000	68.4189	0.395547	21.5811	-7.74238e-06	-1.19968e-05	7092.43
1024.02	79.7302	135.588	157.292	-59.543	57.7903	0.291691	-0.0410784	1.14629	0.851761	1	11	0.00953066	6.0592e-05	0	-6.75665e-05	0.00322261	0.0054803	0.00635759	59.543	851.761	500.865	988.111	-30.457	0.0000000E+000	0.0000000E+000	0.0000000E+000	30.457	0.0000000E+000	0.0000000E+000	0.0000000E+000	-30.457	0.0000000E+000	0.0000000E+000	0.0000000E+000	-59.543	0.0000000E+000	0.0000000E+000	0.0000000E+000	59.543	0.588035	30.457	-5.29518e-06	-1.19822e-05	7100.84
476.984	183.555	179.643	256.835	-44.383	58.7263	0.291695	-0.0412459	1.8574	0.9087	1	11	0.00945429	3.68108e-05	0	-7.80416e-05	0.00278265	0.00272335	0.00389356	44.383	908.7	928.484	1299.16	-45.617	0.0000000E+000	0.0000000E+000	0.0000000E+000	45.617	0.0000000E+000	0.0000000E+000	0.0000000E+000	-45.617	0.0000000E+000	0.0000000E+000	0.0000000E+000	-44.383	0.0000000E+000	0.0000000E+000	0.0000000E+000	44.383	1.02177	45.617	-5.21217e-06	-1.20312e-05	7072.09
222.348	300.544	162.96	341.881	-28.4673	59.911	0.29172	-0.0420254	4.39244	0.997971	1	12	0.00949486	2.77724e-05	0	-9.11829e-05	0.00257133	0.00139422	0.00292499	28.4673	997.971	1840.54	2093.69	-61.5327	0.0000000E+000	0.0000000E+000	0.0000000E+000	61.5327	0.0000000E+000	0.0000000E+000	0.0000000E+000	-61.5327	0.0000000E+000	0.0000000E+000	0.0000000E+000	-28.4673	0.0000000E+000	0.0000000E+000	0.0000000E+000	28.4673	1.84428	61.5327	-5.29045e-06	-1.22597e-05	6941.52
103.575	372.422	116.831	390.318	-17.417	60.8459	0.291714	-0.0420333	13.1524	1.17839	1	12	0.00945061	2.42126e-05	0	-0.000101908	0.00244455	0.000766872	0.00256201	17.417	1178.39	3756.34	3936.84	-72.583	0.0000000E+000	0.0000000E+000	0.0000000E+000	72.583	0.0000000E+000	0.0000000E+000	0.0000000E+000	-72.583	0.0000000E+000	0.0000000E+000	0.0000000E+000	-17.417	0.0000000E+000	0.0000000E+000	0.0000000E+000	17.417	3.18769	72.583	-5.44276e-06	-1.22617e-05	6940.07
48.2849	408.728	86.0775	417.693	-11.8926	61.7902	0.291719	-0.0419051	38.293	1.62624	1	12	0.0094409	2.26025e-05	0	-0.000112743	0.00234271	0.000493372	0.0023941	11.8926	1626.23	7721.96	7891.35	-78.1074	0.0000000E+000	0.0000000E+000	0.0000000E+000	78.1074	0.0000000E+000	0.0000000E+000	0.0000000E+000	-78.1074	0.0000000E+000	0.0000000E+000	0.0000000E+000	-11.8926	0.0000000E+000	0.0000000E+000	0.0000000E+000	11.8926	4.74837	78.1074	-5.50329e-06	-1.22245e-05	6961.41
22.482	435.43	76.1963	442.047	-9.92573	62.7051	0.291715	-0.0419475	92.9076	2.76046	1	12	0.00943762	2.13498e-05	0	-0.000123174	0.00222834	0.000389939	0.0022622	9.92573	2760.46	15774.9	16014.6	-80.0743	0.0000000E+000	0.0000000E+000	0.0000000E+000	80.0743	0.0000000E+000	0.0000000E+000	0.0000000E+000	-80.0743	0.0000000E+000	0.0000000E+000	0.0000000E+000	-9.92573	0.0000000E+000	0.0000000E+000	0.0000000E+000	9.92573	5.71459	80.0743	-4.77353e-06	-1.22367e-05	6954.28
10.4866	463.178	84.3786	470.801	-10.3245	63.6129	0.291708	-0.0418951	179.868	5.77754	1	12	0.00944009	2.00511e-05	0	-0.000133502	0.00208965	0.000380677	0.00212404	10.3245	5777.54	31714.6	32236.5	-79.6755	0.0000000E+000	0.0000000E+000	0.0000000E+000	79.6755	0.0000000E+000	0.0000000E+000	0.0000000E+000	-79.6755	0.0000000E+000	0.0000000E+000	0.0000000E+000	-10.3245	0.0000000E+000	0.0000000E+000	0.0000000E+000	10.3245	5.48929	79.6755	-5.10048e-06	-1.22211e-05	6962.83
4.88281	499.937	108.595	511.596	-12.2553	64.441	0.291718	-0.0419406	300.15	13.5241	1	12	0.00943567	1.84436e-05	0	-0.000142997	0.00191012	0.000414914	0.00195467	12.2553	13524.1	62260.4	63712.3	-77.7447	0.0000000E+000	0.0000000E+000	0.0000000E+000	77.7447	0.0000000E+000	0.0000000E+000	0.0000000E+000	-77.7447	0.0000000E+000	0.0000000E+000	0.0000000E+000	-12.2553	0.0000000E+000	0.0000000E+000	0.0000000E+000	12.2553	4.60367	77.7447	-5.3158e-06	-1.22348e-05	6955.51
2.27637	549.248	151.052	569.641	-15.3771	66.0796	0.291727	-0.041701	462.862	32.5463	1	12	0.00943657	1.65658e-05	0	-0.000161864	0.00169265	0.000465505	0.00175549	15.3771	32546.3	118343	122737	-74.6229	0.0000000E+000	0.0000000E+000	0.0000000E+000	74.6229	0.0000000E+000	0.0000000E+000	0.0000000E+000	-74.6229	0.0000000E+000	0.0000000E+000	0.0000000E+000	-15.3771	0.0000000E+000	0.0000000E+000	0.0000000E+000	15.3771	3.63616	74.6229	-1.13145e-05	-1.21653e-05	6995.7
1.06148	629.824	214.947	665.493	-18.8438	69.4908	0.291722	-0.0417128	697.551	72.77	1	12	0.00943899	1.41835e-05	0	-0.000201612	0.00142211	0.000485339	0.00150265	18.8438	72770	213226	225302	-71.1562	0.0000000E+000	0.0000000E+000	0.0000000E+000	71.1562	0.0000000E+000	0.0000000E+000	0.0000000E+000	-71.1562	0.0000000E+000	0.0000000E+000	0.0000000E+000	-18.8438	0.0000000E+000	0.0000000E+000	0.0000000E+000	18.8438	2.93014	71.1562	-2.33251e-05	-1.21685e-05	6993.57
0.494337	763.713	292.926	817.963	-20.9846	76.7221	0.291728	-0.0416295	1099.1	140.958	1	12	0.00943874	1.15393e-05	0	-0.000283817	0.00114147	0.000437816	0.00122255	20.9846	140958	367502	393608	-69.0154	0.0000000E+000	0.0000000E+000	0.0000000E+000	69.0154	0.0000000E+000	0.0000000E+000	0.0000000E+000	-69.0154	0.0000000E+000	0.0000000E+000	0.0000000E+000	-20.9846	0.0000000E+000	0.0000000E+000	0.0000000E+000	20.9846	2.60718	69.0154	-4.87153e-05	-1.21445e-05	7007.72
0.230321	983.145	304.923	1029.35	-17.2313	92.1478	0.291728	-0.0415911	2266.18	198.863	1	12	0.0094387	9.16961e-06	0	-0.000461089	0.000927887	0.000287785	0.000971491	17.2313	198863	641182	671312	-72.7687	0.0000000E+000	0.0000000E+000	0.0000000E+000	72.7687	0.0000000E+000	0.0000000E+000	0.0000000E+000	-72.7687	0.0000000E+000	0.0000000E+000	0.0000000E+000	-17.2313	0.0000000E+000	0.0000000E+000	0.0000000E+000	17.2313	3.22424	72.7687	-0.000105646	-1.21333e-05	7014.19
0.107379	1146.87	198.627	1163.95	-9.82557	134.518	0.291728	-0.0417126	7462.11	217.305	1	13	0.00943803	8.10865e-06	0	-0.000953196	0.000846544	0.000146613	0.000859146	9.82557	217305	1.25472e+06	1.2734e+06	-80.1744	0.0000000E+000	0.0000000E+000	0.0000000E+000	80.1744	0.0000000E+000	0.0000000E+000	0.0000000E+000	-80.1744	0.0000000E+000	0.0000000E+000	0.0000000E+000	-9.82557	0.0000000E+000	0.0000000E+000	0.0000000E+000	9.82557	5.77402	80.1744	-0.00033664	-1.21687e-05	6993.76
0.0500352	1198.6	102.26	1202.96	-4.87645	205.265	0.291727	-0.0416609	31105.6	224.777	1	13	0.00943763	7.84536e-06	0	-0.00177733	0.000828277	7.06654e-05	0.000831285	4.87645	224777	2.63463e+06	2.6442e+06	-85.1235	0.0000000E+000	0.0000000E+000	0.0000000E+000	85.1235	0.0000000E+000	0.0000000E+000	0.0000000E+000	-85.1235	0.0000000E+000	0.0000000E+000	0.0000000E+000	-4.87645	0.0000000E+000	0.0000000E+000	0.0000000E+000	4.87645	11.7211	85.1235	-0.000489095	-1.21536e-05	7002.41

File: LSV_EIS_500rpm_02_PEIS_C01.txt
freq/Hz	Re(Z)/Ohm	-Im(Z)/Ohm	|Z|/Ohm	Phase(Z)/deg	time/s	<Ewe>/V	<I>/mA	Cs/µF	Cp/µF	cycle number	I Range	|Ewe|/V	|I|/A	Ns	(Q-Qo)/mA.h	Re(Y)/Ohm-1	Im(Y)/Ohm-1	|Y|/Ohm-1	Phase(Y)/deg	Re(C)/nF	Im(C)/nF	|C|/nF	Phase(C)/deg	Re(M)	Im(M)	|M|	Phase(M)/deg	Re(Permittivity)	Im(Permittivity)	|Permittivity|	Phase(Permittivity)/deg	Re(Resistivity)/Ohm.cm	Im(Resistivity)/Ohm.cm	|Resistivity|/Ohm.cm	Phase(Resistivity)/deg	Re(Conductivity)/mS/cm	Im(Conductivity)/mS/cm	|Conductivity|/mS/cm	Phase(Conductivity)/deg	Tan(Delta)	Loss Angle(Delta)/deg	dq/mA.h	Pwe/W	Rwe/Ohm
100004	6.79326	2.22362	7.14793	-18.1247	51.6709	0.291679	-0.040391	0.71572	0.0692635	1	10	0.00907987	0.00127028	0	-1.64257e-05	0.132959	0.0435212	0.139901	18.1247	69.2636	211.603	222.651	-71.8753	0.0000000E+000	0.0000000E+000	0.0000000E+000	71.8753	0.0000000E+000	0.0000000E+000	0.0000000E+000	-71.8753	0.0000000E+000	0.0000000E+000	0.0000000E+000	-18.1247	0.0000000E+000	0.0000000E+000	0.0000000E+000	18.1247	3.05504	71.8753	-1.64257e-05	-1.17812e-05	7221.39
46596.6	7.01207	4.81343	8.50519	-34.4677	52.5449	0.291669	-0.0418893	0.709595	0.227275	1	10	0.0107569	0.00126474	0	-2.61413e-05	0.0969345	0.0665407	0.117575	34.4677	227.275	331.088	401.589	-55.5323	0.0000000E+000	0.0000000E+000	0.0000000E+000	55.5323	0.0000000E+000	0.0000000E+000	0.0000000E+000	-55.5323	0.0000000E+000	0.0000000E+000	0.0000000E+000	-34.4677	0.0000000E+000	0.0000000E+000	0.0000000E+000	34.4677	1.45677	55.5323	-2.93812e-06	-1.22178e-05	6962.85
21711.7	7.60248	10.0471	12.5993	-52.8859	53.4189	0.291672	-0.0409382	0.729599	0.463954	1	10	0.0106869	0.00084821	0	-3.63563e-05	0.0478918	0.063292	0.0793694	52.8859	463.954	351.065	581.808	-37.1141	0.0000000E+000	0.0000000E+000	0.0000000E+000	37.1141	0.0000000E+000	0.0000000E+000	0.0000000E+000	-37.1141	0.0000000E+000	0.0000000E+000	0.0000000E+000	-52.8859	0.0000000E+000	0.0000000E+000	0.0000000E+000	52.8859	0.756681	37.1141	-5.01057e-06	-1.19405e-05	7124.69
10113.6	9.36144	20.6609	22.6828	-65.6248	54.1529	0.291675	-0.0411299	0.761668	0.631934	1	10	0.00954324	0.000420726	0	-4.37041e-05	0.0181948	0.0401565	0.0440862	65.6248	631.934	286.328	693.775	-24.3752	0.0000000E+000	0.0000000E+000	0.0000000E+000	24.3752	0.0000000E+000	0.0000000E+000	0.0000000E+000	-24.3752	0.0000000E+000	0.0000000E+000	0.0000000E+000	-65.6248	0.0000000E+000	0.0000000E+000	0.0000000E+000	65.6248	0.453099	24.3752	-3.11991e-06	-1.19966e-05	7091.56
4716.51	14.6829	41.9573	44.4523	-70.7125	55.6981	0.291711	-0.0507919	0.804251	0.716504	1	11	0.010098	0.000227165	0	-6.04947e-05	0.00743062	0.0212334	0.022496	70.7125	716.504	250.74	759.111	-19.2875	0.0000000E+000	0.0000000E+000	0.0000000E+000	19.2875	0.0000000E+000	0.0000000E+000	0.0000000E+000	-19.2875	0.0000000E+000	0.0000000E+000	0.0000000E+000	-70.7125	0.0000000E+000	0.0000000E+000	0.0000000E+000	70.7125	0.349949	19.2875	-1.30305e-05	-1.48165e-05	5743.25
2195.7	32.0159	81.8102	87.8517	-68.6274	56.8571	0.291691	-0.0507634	0.886011	0.76834	1	11	0.00985252	0.000112149	0	-7.64375e-05	0.00414825	0.0106	0.0113828	68.6274	768.34	300.685	825.081	-21.3726	0.0000000E+000	0.0000000E+000	0.0000000E+000	21.3726	0.0000000E+000	0.0000000E+000	0.0000000E+000	-21.3726	0.0000000E+000	0.0000000E+000	0.0000000E+000	-68.6274	0.0000000E+000	0.0000000E+000	0.0000000E+000	68.6274	0.391343	21.3726	-9.57576e-06	-1.48072e-05	5746.09
1024.02	84.0869	141.609	164.693	-59.2984	57.7903	0.291697	-0.0508577	1.09754	0.811435	1	11	0.00952308	5.78232e-05	0	-8.94656e-05	0.00310011	0.00522085	0.0060719	59.2984	811.435	481.826	943.707	-30.7016	0.0000000E+000	0.0000000E+000	0.0000000E+000	30.7016	0.0000000E+000	0.0000000E+000	0.0000000E+000	-30.7016	0.0000000E+000	0.0000000E+000	0.0000000E+000	-59.2984	0.0000000E+000	0.0000000E+000	0.0000000E+000	59.2984	0.593795	30.7016	-6.53943e-06	-1.4835e-05	5735.56
476.984	192.729	184.151	266.564	-43.6961	58.7263	0.291694	-0.0509374	1.81193	0.864745	1	11	0.00945048	3.5453e-05	0	-0.000102406	0.00271235	0.00259162	0.00375145	43.6961	864.745	905.028	1251.74	-46.3039	0.0000000E+000	0.0000000E+000	0.0000000E+000	46.3039	0.0000000E+000	0.0000000E+000	0.0000000E+000	-46.3039	0.0000000E+000	0.0000000E+000	0.0000000E+000	-43.6961	0.0000000E+000	0.0000000E+000	0.0000000E+000	43.6961	1.04658	46.3039	-6.44987e-06	-1.48581e-05	5726.52
222.348	310.759	162.902	350.868	-27.6639	59.911	0.291716	-0.051761	4.39399	0.947166	1	12	0.00948565	2.70348e-05	0	-0.000118632	0.00252427	0.00132324	0.00285007	27.6639	947.166	1806.85	2040.06	-62.3361	0.0000000E+000	0.0000000E+000	0.0000000E+000	62.3361	0.0000000E+000	0.0000000E+000	0.0000000E+000	-62.3361	0.0000000E+000	0.0000000E+000	0.0000000E+000	-27.6639	0.0000000E+000	0.0000000E+000	0.0000000E+000	27.6639	1.90764	62.3361	-6.54387e-06	-1.50995e-05	5635.82
103.575	380.148	114.14	396.914	-16.7125	60.8489	0.291716	-0.0516828	13.4625	1.1133	1	12	0.0094484	2.38047e-05	0	-0.000131851	0.00241302	0.000724515	0.00251944	16.7125	1113.3	3707.88	3871.41	-73.2875	0.0000000E+000	0.0000000E+000	0.0000000E+000	73.2875	0.0000000E+000	0.0000000E+000	0.0000000E+000	-73.2875	0.0000000E+000	0.0000000E+000	0.0000000E+000	-16.7125	0.0000000E+000	0.0000000E+000	0.0000000E+000	16.7125	3.33053	73.2875	-6.70082e-06	-1.50767e-05	5644.35
48.2849	414.787	82.8067	422.972	-11.2899	61.7933	0.291713	-0.0516235	39.8055	1.52564	1	12	0.0094477	2.23365e-05	0	-0.000145184	0.00231847	0.000462853	0.00236422	11.2899	1525.64	7642.07	7792.87	-78.7101	0.0000000E+000	0.0000000E+000	0.0000000E+000	78.7101	0.0000000E+000	0.0000000E+000	0.0000000E+000	-78.7101	0.0000000E+000	0.0000000E+000	0.0000000E+000	-11.2899	0.0000000E+000	0.0000000E+000	0.0000000E+000	11.2899	5.0091	78.7101	-6.78223e-06	-1.50592e-05	5650.77
22.482	439.708	73.4412	445.799	-9.48216	62.7071	0.291709	-0.0516699	96.3929	2.61605	1	12	0.00944099	2.11777e-05	0	-0.000158038	0.00221251	0.00036954	0.00224316	9.48216	2616.05	15662.8	15879.8	-80.5178	0.0000000E+000	0.0000000E+000	0.0000000E+000	80.5178	0.0000000E+000	0.0000000E+000	0.0000000E+000	-80.5178	0.0000000E+000	0.0000000E+000	0.0000000E+000	-9.48216	0.0000000E+000	0.0000000E+000	0.0000000E+000	9.48216	5.98721	80.5178	-5.89023e-06	-1.50726e-05	5645.63
10.4866	466.715	82.999	474.037	-10.0839	63.6149	0.291711	-0.0515665	182.858	5.60575	1	12	0.00943984	1.99137e-05	0	-0.000170764	0.00207695	0.000369358	0.00210954	10.0839	5605.75	31521.9	32016.5	-79.9161	0.0000000E+000	0.0000000E+000	0.0000000E+000	79.9161	0.0000000E+000	0.0000000E+000	0.0000000E+000	-79.9161	0.0000000E+000	0.0000000E+000	0.0000000E+000	-10.0839	0.0000000E+000	0.0000000E+000	0.0000000E+000	10.0839	5.62314	79.9161	-6.28542e-06	-1.50425e-05	5656.98
4.88281	504.663	107.454	515.976	-12.0201	64.4419	0.29171	-0.0516067	303.338	13.1557	1	12	0.00944348	1.83022e-05	0	-0.000182429	0.00189558	0.000403613	0.00193808	12.0201	13155.7	61786.4	63171.4	-77.9799	0.0000000E+000	0.0000000E+000	0.0000000E+000	77.9799	0.0000000E+000	0.0000000E+000	0.0000000E+000	-77.9799	0.0000000E+000	0.0000000E+000	0.0000000E+000	-12.0201	0.0000000E+000	0.0000000E+000	0.0000000E+000	12.0201	4.69654	77.9799	-6.58011e-06	-1.50542e-05	5652.57
2.27637	555.425	150.499	575.454	-15.1609	66.0816	0.291722	-0.051436	464.563	31.7753	1	12	0.00944068	1.64056e-05	0	-0.00020566	0.00167728	0.000454477	0.00173776	15.1609	31775.3	117269	121497	-74.8391	0.0000000E+000	0.0000000E+000	0.0000000E+000	74.8391	0.0000000E+000	0.0000000E+000	0.0000000E+000	-74.8391	0.0000000E+000	0.0000000E+000	0.0000000E+000	-15.1609	0.0000000E+000	0.0000000E+000	0.0000000E+000	15.1609	3.69056	74.8391	-1.38977e-05	-1.5005e-05	5671.54
1.06148	648.898	204.44	680.341	-17.4874	69.4946	0.291724	-0.0513566	733.402	66.2247	1	12	0.0094387	1.38735e-05	0	-0.000254538	0.00140192	0.000441684	0.00146985	17.4874	66224.7	210199	220384	-72.5126	0.0000000E+000	0.0000000E+000	0.0000000E+000	72.5126	0.0000000E+000	0.0000000E+000	0.0000000E+000	-72.5126	0.0000000E+000	0.0000000E+000	0.0000000E+000	-17.4874	0.0000000E+000	0.0000000E+000	0.0000000E+000	17.4874	3.17403	72.5126	-2.87003e-05	-1.4982e-05	5680.37
0.494337	798.108	221.767	828.346	-15.5288	76.7243	0.291727	-0.0513179	1451.78	104.057	1	12	0.00943794	1.13937e-05	0	-0.000356191	0.00116316	0.000323201	0.00120723	15.5288	104057	374486	388674	-74.4712	0.0000000E+000	0.0000000E+000	0.0000000E+000	74.4712	0.0000000E+000	0.0000000E+000	0.0000000E+000	-74.4712	0.0000000E+000	0.0000000E+000	0.0000000E+000	-15.5288	0.0000000E+000	0.0000000E+000	0.0000000E+000	15.5288	3.59886	74.4712	-6.02648e-05	-1.49708e-05	5684.69
0.230321	924.638	147.12	936.269	-9.0406	92.1509	0.291723	-0.0513046	4696.93	115.973	1	12	0.00944038	1.0083e-05	0	-0.000574741	0.0010548	0.00016783	0.00106807	9.0406	115973	728880	738049	-80.9594	0.0000000E+000	0.0000000E+000	0.0000000E+000	80.9594	0.0000000E+000	0.0000000E+000	0.0000000E+000	-80.9594	0.0000000E+000	0.0000000E+000	0.0000000E+000	-9.0406	0.0000000E+000	0.0000000E+000	0.0000000E+000	9.0406	6.28492	80.9594	-0.000130137	-1.49667e-05	5686.1
0.107379	964.171	76.4979	967.201	-4.53638	125.153	0.291718	-0.0512361	19375.3	121.203	1	12	0.0094395	9.75961e-06	0	-0.00104715	0.00103067	8.17741e-05	0.00103391	4.53638	121203	1.52763e+06	1.53243e+06	-85.4636	0.0000000E+000	0.0000000E+000	0.0000000E+000	85.4636	0.0000000E+000	0.0000000E+000	0.0000000E+000	-85.4636	0.0000000E+000	0.0000000E+000	0.0000000E+000	-4.53638	0.0000000E+000	0.0000000E+000	0.0000000E+000	4.53638	12.6039	85.4636	-0.000281091	-1.49465e-05	5693.61
0.0500352	974.205	37.8472	974.94	-2.22478	195.9	0.291724	-0.0512435	84044.8	126.655	1	12	0.00943641	9.67896e-06	0	-0.00206095	0.00102493	3.98178e-05	0.0010257	2.22478	126655	3.26016e+06	3.26262e+06	-87.7752	0.0000000E+000	0.0000000E+000	0.0000000E+000	87.7752	0.0000000E+000	0.0000000E+000	0.0000000E+000	-87.7752	0.0000000E+000	0.0000000E+000	0.0000000E+000	-2.22478	0.0000000E+000	0.0000000E+000	0.0000000E+000	2.22478	25.7405	87.7752	-0.000601849	-1.49489e-05	5692.89