Folder: EC2-Practical/Data/Task 3.3 LSV (part 3)

File: LSV_EIS_2000 rpm_02_PEIS_C01.txt
freq/Hz	Re(Z)/Ohm	-Im(Z)/Ohm	|Z|/Ohm	Phase(Z)/deg	time/s	<Ewe>/V	<I>/mA	Cs/µF	Cp/µF	cycle number	I Range	|Ewe|/V	|I|/A	Ns	(Q-Qo)/mA.h	Re(Y)/Ohm-1	Im(Y)/Ohm-1	|Y|/Ohm-1	Phase(Y)/deg	Re(C)/nF	Im(C)/nF	|C|/nF	Phase(C)/deg	Re(M)	Im(M)	|M|	Phase(M)/deg	Re(Permittivity)	Im(Permittivity)	|Permittivity|	Phase(Permittivity)/deg	Re(Resistivity)/Ohm.cm	Im(Resistivity)/Ohm.cm	|Resistivity|/Ohm.cm	Phase(Resistivity)/deg	Re(Conductivity)/mS/cm	Im(Conductivity)/mS/cm	|Conductivity|/mS/cm	Phase(Conductivity)/deg	Tan(Delta)	Loss Angle(Delta)/deg	dq/mA.h	Pwe/W	Rwe/Ohm
100004	6.72466	2.28564	7.10248	-18.7723	51.6689	0.29166	-0.0615624	0.6963	0.0721093	1	10	0.00902706	0.00127097	0	-2.40978e-05	0.133306	0.0453093	0.140796	18.7723	72.1094	212.156	224.075	-71.2277	0.0000000E+000	0.0000000E+000	0.0000000E+000	71.2277	0.0000000E+000	0.0000000E+000	0.0000000E+000	-71.2277	0.0000000E+000	0.0000000E+000	0.0000000E+000	-18.7723	0.0000000E+000	0.0000000E+000	0.0000000E+000	18.7723	2.94214	71.2277	-2.40978e-05	-1.79553e-05	4737.63
46596.6	6.95029	4.96657	8.54244	-35.549	52.5439	0.291641	-0.062333	0.687716	0.232465	1	10	0.0107852	0.00126255	0	-3.50687e-05	0.0952443	0.0680601	0.117063	35.549	232.465	325.315	399.838	-54.451	0.0000000E+000	0.0000000E+000	0.0000000E+000	54.451	0.0000000E+000	0.0000000E+000	0.0000000E+000	-54.451	0.0000000E+000	0.0000000E+000	0.0000000E+000	-35.549	0.0000000E+000	0.0000000E+000	0.0000000E+000	35.549	1.39941	54.451	-5.5386e-06	-1.81788e-05	4678.76
21711.7	7.53161	10.3999	12.8407	-54.088	53.4199	0.29165	-0.0615029	0.704849	0.462359	1	10	0.0107299	0.000835619	0	-4.82457e-05	0.0456783	0.0630744	0.0778774	54.088	462.359	334.839	570.87	-35.912	0.0000000E+000	0.0000000E+000	0.0000000E+000	35.912	0.0000000E+000	0.0000000E+000	0.0000000E+000	-35.912	0.0000000E+000	0.0000000E+000	0.0000000E+000	-54.088	0.0000000E+000	0.0000000E+000	0.0000000E+000	54.088	0.724198	35.912	-5.30103e-06	-1.79373e-05	4742.06
10113.6	9.34013	21.4971	23.4385	-66.5158	54.1529	0.291661	-0.0619049	0.732043	0.615795	1	10	0.00952566	0.000406411	0	-5.97075e-05	0.0170018	0.039131	0.0426649	66.5158	615.795	267.553	671.408	-23.4842	0.0000000E+000	0.0000000E+000	0.0000000E+000	23.4842	0.0000000E+000	0.0000000E+000	0.0000000E+000	-23.4842	0.0000000E+000	0.0000000E+000	0.0000000E+000	-66.5158	0.0000000E+000	0.0000000E+000	0.0000000E+000	66.5158	0.434484	23.4842	-4.87052e-06	-1.80552e-05	4711.43
4716.51	14.8967	43.6546	46.1263	-71.1583	55.6501	0.291676	-0.0722015	0.772982	0.69236	1	11	0.0101777	0.000220648	0	-8.54798e-05	0.00700153	0.0205179	0.0216796	71.1583	692.36	236.261	731.562	-18.8417	0.0000000E+000	0.0000000E+000	0.0000000E+000	18.8417	0.0000000E+000	0.0000000E+000	0.0000000E+000	-18.8417	0.0000000E+000	0.0000000E+000	0.0000000E+000	-71.1583	0.0000000E+000	0.0000000E+000	0.0000000E+000	71.1583	0.34124	18.8417	-1.70323e-05	-2.10595e-05	4039.75
2195.7	33.49	85.1142	91.4659	-68.5218	56.8091	0.291675	-0.0721097	0.851618	0.737447	1	11	0.0098412	0.000107594	0	-0.000108376	0.00400311	0.0101738	0.010933	68.5218	737.447	290.164	792.479	-21.4782	0.0000000E+000	0.0000000E+000	0.0000000E+000	21.4782	0.0000000E+000	0.0000000E+000	0.0000000E+000	-21.4782	0.0000000E+000	0.0000000E+000	0.0000000E+000	-68.5218	0.0000000E+000	0.0000000E+000	0.0000000E+000	68.5218	0.393471	21.4782	-1.36229e-05	-2.10326e-05	4044.89
1024.02	89.1935	145.58	170.731	-58.5051	57.7433	0.291679	-0.072113	1.06761	0.776232	1	11	0.00952219	5.57732e-05	0	-0.000126792	0.00305992	0.00499434	0.00585718	58.5051	776.232	475.58	910.336	-31.4949	0.0000000E+000	0.0000000E+000	0.0000000E+000	31.4949	0.0000000E+000	0.0000000E+000	0.0000000E+000	-31.4949	0.0000000E+000	0.0000000E+000	0.0000000E+000	-58.5051	0.0000000E+000	0.0000000E+000	0.0000000E+000	58.5051	0.612678	31.4949	-9.24931e-06	-2.10338e-05	4044.75
476.984	201.701	183.961	272.993	-42.3662	58.6793	0.291672	-0.072254	1.81381	0.823643	1	11	0.00945007	3.46166e-05	0	-0.000145153	0.00270649	0.00246844	0.0036631	42.3662	823.643	903.073	1222.26	-47.6338	0.0000000E+000	0.0000000E+000	0.0000000E+000	47.6338	0.0000000E+000	0.0000000E+000	0.0000000E+000	-47.6338	0.0000000E+000	0.0000000E+000	0.0000000E+000	-42.3662	0.0000000E+000	0.0000000E+000	0.0000000E+000	42.3662	1.09644	47.6338	-9.16419e-06	-2.10745e-05	4036.76
222.348	316.114	156.436	352.705	-26.3295	59.864	0.2917	-0.0728929	4.57561	0.900123	1	12	0.00948183	2.68832e-05	0	-0.000168088	0.0025411	0.00125752	0.00283523	26.3295	900.123	1818.9	2029.44	-63.6705	0.0000000E+000	0.0000000E+000	0.0000000E+000	63.6705	0.0000000E+000	0.0000000E+000	0.0000000E+000	-63.6705	0.0000000E+000	0.0000000E+000	0.0000000E+000	-26.3295	0.0000000E+000	0.0000000E+000	0.0000000E+000	26.3295	2.02072	63.6705	-9.22971e-06	-2.12629e-05	4001.76
103.575	379.05	107.921	394.114	-15.8924	60.7989	0.29169	-0.0729372	14.2384	1.06765	1	12	0.00944933	2.39761e-05	0	-0.000186682	0.00244035	0.000694803	0.00253734	15.8924	1067.65	3749.89	3898.92	-74.1076	0.0000000E+000	0.0000000E+000	0.0000000E+000	74.1076	0.0000000E+000	0.0000000E+000	0.0000000E+000	-74.1076	0.0000000E+000	0.0000000E+000	0.0000000E+000	-15.8924	0.0000000E+000	0.0000000E+000	0.0000000E+000	15.8924	3.5123	74.1076	-9.38629e-06	-2.1275e-05	3999.19
48.2849	410.579	78.471	418.011	-10.82	61.7433	0.291701	-0.0728931	42.0048	1.48028	1	12	0.0094377	2.25776e-05	0	-0.000205503	0.00234975	0.000449091	0.00239228	10.82	1480.28	7745.16	7885.35	-79.18	0.0000000E+000	0.0000000E+000	0.0000000E+000	79.18	0.0000000E+000	0.0000000E+000	0.0000000E+000	-79.18	0.0000000E+000	0.0000000E+000	0.0000000E+000	-10.82	0.0000000E+000	0.0000000E+000	0.0000000E+000	10.82	5.23224	79.18	-9.60355e-06	-2.1263e-05	4001.77
22.482	434.194	70.4558	439.873	-9.21695	62.658	0.291697	-0.0728912	100.477	2.57779	1	12	0.0094361	2.14519e-05	0	-0.000223722	0.00224403	0.000364135	0.00227338	9.21695	2577.79	15886	16093.8	-80.7831	0.0000000E+000	0.0000000E+000	0.0000000E+000	80.7831	0.0000000E+000	0.0000000E+000	0.0000000E+000	-80.7831	0.0000000E+000	0.0000000E+000	0.0000000E+000	-9.21695	0.0000000E+000	0.0000000E+000	0.0000000E+000	9.21695	6.16264	80.7831	-8.40875e-06	-2.12621e-05	4001.81
10.4866	461.331	80.7846	468.351	-9.93247	63.5659	0.291694	-0.0728864	187.87	5.58949	1	12	0.00944456	2.01656e-05	0	-0.000241933	0.00210315	0.000368286	0.00213515	9.93247	5589.48	31919.5	32405.2	-80.0675	0.0000000E+000	0.0000000E+000	0.0000000E+000	80.0675	0.0000000E+000	0.0000000E+000	0.0000000E+000	-80.0675	0.0000000E+000	0.0000000E+000	0.0000000E+000	-9.93247	0.0000000E+000	0.0000000E+000	0.0000000E+000	9.93247	5.71063	80.0675	-9.07894e-06	-2.12605e-05	4002.03
4.88281	504.275	102.657	514.618	-11.5067	64.394	0.2917	-0.0728011	317.513	12.6348	1	12	0.0094371	1.83381e-05	0	-0.000258463	0.00190413	0.000387632	0.00194319	11.5067	12634.8	62065.1	63338.2	-78.4933	0.0000000E+000	0.0000000E+000	0.0000000E+000	78.4933	0.0000000E+000	0.0000000E+000	0.0000000E+000	-78.4933	0.0000000E+000	0.0000000E+000	0.0000000E+000	-11.5067	0.0000000E+000	0.0000000E+000	0.0000000E+000	11.5067	4.91222	78.4933	-9.73191e-06	-2.12361e-05	4006.81
2.27637	576.25	112.953	587.216	-11.0902	66.0326	0.291707	-0.0726734	618.984	22.9023	1	12	0.00944004	1.60759e-05	0	-0.000290705	0.00167115	0.000327569	0.00170295	11.0902	22902.3	116840	119064	-78.9098	0.0000000E+000	0.0000000E+000	0.0000000E+000	78.9098	0.0000000E+000	0.0000000E+000	0.0000000E+000	-78.9098	0.0000000E+000	0.0000000E+000	0.0000000E+000	-11.0902	0.0000000E+000	0.0000000E+000	0.0000000E+000	11.0902	5.10168	78.9098	-1.90203e-05	-2.11993e-05	4013.94
1.06148	644.374	83.5492	649.768	-7.38772	69.4446	0.291701	-0.0726448	1794.59	29.6711	1	12	0.0094389	1.45266e-05	0	-0.000359761	0.00152623	0.000197891	0.00153901	7.38772	29671.1	228839	230754	-82.6123	0.0000000E+000	0.0000000E+000	0.0000000E+000	82.6123	0.0000000E+000	0.0000000E+000	0.0000000E+000	-82.6123	0.0000000E+000	0.0000000E+000	0.0000000E+000	-7.38772	0.0000000E+000	0.0000000E+000	0.0000000E+000	7.38772	7.71251	82.6123	-4.10148e-05	-2.11906e-05	4015.45
0.494337	673.621	44.8761	675.115	-3.81137	76.6753	0.29171	-0.0725364	7174.34	31.6999	1	12	0.00943725	1.39787e-05	0	-0.000505979	0.00147795	9.84601e-05	0.00148123	3.81137	31699.8	475837	476892	-86.1886	0.0000000E+000	0.0000000E+000	0.0000000E+000	86.1886	0.0000000E+000	0.0000000E+000	0.0000000E+000	-86.1886	0.0000000E+000	0.0000000E+000	0.0000000E+000	-3.81137	0.0000000E+000	0.0000000E+000	0.0000000E+000	3.81137	15.0107	86.1886	-8.65132e-05	-2.11596e-05	4021.57
0.230321	680.834	21.5108	681.173	-1.80964	92.101	0.291701	-0.0724508	32124	32.0351	1	12	0.00943921	1.38573e-05	0	-0.000814082	0.00146732	4.63597e-05	0.00146806	1.80964	32035.2	1.01394e+06	1.01444e+06	-88.1904	0.0000000E+000	0.0000000E+000	0.0000000E+000	88.1904	0.0000000E+000	0.0000000E+000	0.0000000E+000	-88.1904	0.0000000E+000	0.0000000E+000	0.0000000E+000	-1.80964	0.0000000E+000	0.0000000E+000	0.0000000E+000	1.80964	31.6508	88.1904	-0.000182585	-2.1134e-05	4026.2
0.107379	682.927	10.2772	683.005	-0.862161	125.104	0.291702	-0.0723575	144220	32.6531	1	12	0.00943934	1.38203e-05	0	-0.00147228	0.00146395	2.20306e-05	0.00146412	0.862161	32653.1	2.16983e+06	2.17008e+06	-89.1378	0.0000000E+000	0.0000000E+000	0.0000000E+000	89.1378	0.0000000E+000	0.0000000E+000	0.0000000E+000	-89.1378	0.0000000E+000	0.0000000E+000	0.0000000E+000	-0.862161	0.0000000E+000	0.0000000E+000	0.0000000E+000	0.862161	66.451	89.1378	-0.000391438	-2.11068e-05	4031.4
0.0500352	683.13	4.3231	683.143	-0.362584	195.851	0.291698	-0.0723153	735782	29.4656	1	12	0.00943787	1.38154e-05	0	-0.00289615	0.00146379	9.26342e-06	0.00146382	0.362584	29465.9	4.65612e+06	4.65621e+06	-89.6374	0.0000000E+000	0.0000000E+000	0.0000000E+000	89.6374	0.0000000E+000	0.0000000E+000	0.0000000E+000	-89.6374	0.0000000E+000	0.0000000E+000	0.0000000E+000	-0.362584	0.0000000E+000	0.0000000E+000	0.0000000E+000	0.362584	158.019	89.6374	-0.000847796	-2.10942e-05	4033.69

File: LSV_EIS_2500 rpm_02_PEIS_C01.txt
freq/Hz	Re(Z)/Ohm	-Im(Z)/Ohm	|Z|/Ohm	Phase(Z)/deg	time/s	<Ewe>/V	<I>/mA	Cs/µF	Cp/µF	cycle number	I Range	|Ewe|/V	|I|/A	Ns	(Q-Qo)/mA.h	Re(Y)/Ohm-1	Im(Y)/Ohm-1	|Y|/Ohm-1	Phase(Y)/deg	Re(C)/nF	Im(C)/nF	|C|/nF	Phase(C)/deg	Re(M)	Im(M)	|M|	Phase(M)/deg	Re(Permittivity)	Im(Permittivity)	|Permittivity|	Phase(Permittivity)/deg	Re(Resistivity)/Ohm.cm	Im(Resistivity)/Ohm.cm	|Resistivity|/Ohm.cm	Phase(Resistivity)/deg	Re(Conductivity)/mS/cm	Im(Conductivity)/mS/cm	|Conductivity|/mS/cm	Phase(Conductivity)/deg	Tan(Delta)	Loss Angle(Delta)/deg	dq/mA.h	Pwe/W	Rwe/Ohm
100004	6.70957	2.29282	7.09051	-18.8665	51.6689	0.291647	-0.0653891	0.694119	0.0725804	1	10	0.00905685	0.00127732	0	-2.61755e-05	0.133457	0.0456053	0.141034	18.8665	72.5804	212.395	224.454	-71.1335	0.0000000E+000	0.0000000E+000	0.0000000E+000	71.1335	0.0000000E+000	0.0000000E+000	0.0000000E+000	-71.1335	0.0000000E+000	0.0000000E+000	0.0000000E+000	-18.8665	0.0000000E+000	0.0000000E+000	0.0000000E+000	18.8665	2.92634	71.1335	-2.61755e-05	-1.90705e-05	4460.18
46596.6	6.9297	4.98634	8.53723	-35.7373	52.5429	0.291639	-0.0652253	0.68499	0.233676	1	10	0.0107995	0.00126499	0	-4.40738e-05	0.0950781	0.0684144	0.117134	35.7373	233.676	324.748	400.082	-54.2627	0.0000000E+000	0.0000000E+000	0.0000000E+000	54.2627	0.0000000E+000	0.0000000E+000	0.0000000E+000	-54.2627	0.0000000E+000	0.0000000E+000	0.0000000E+000	-35.7373	0.0000000E+000	0.0000000E+000	0.0000000E+000	35.7373	1.38974	54.2627	-7.41706e-06	-1.90223e-05	4471.26
21711.7	7.51317	10.4574	12.8766	-54.3046	53.4169	0.291646	-0.0652812	0.700973	0.46233	1	10	0.0106243	0.000825092	0	-5.98052e-05	0.0453131	0.0630705	0.0776605	54.3046	462.33	332.162	569.281	-35.6954	0.0000000E+000	0.0000000E+000	0.0000000E+000	35.6954	0.0000000E+000	0.0000000E+000	0.0000000E+000	-35.6954	0.0000000E+000	0.0000000E+000	0.0000000E+000	-54.3046	0.0000000E+000	0.0000000E+000	0.0000000E+000	54.3046	0.718452	35.6954	-8.81742e-06	-1.9039e-05	4467.54
10113.6	9.29847	21.6115	23.527	-66.72	54.1499	0.29166	-0.0656814	0.728166	0.614424	1	10	0.00952424	0.000404822	0	-7.26515e-05	0.0167988	0.0390438	0.0425043	66.72	614.424	264.359	668.881	-23.28	0.0000000E+000	0.0000000E+000	0.0000000E+000	23.28	0.0000000E+000	0.0000000E+000	0.0000000E+000	-23.28	0.0000000E+000	0.0000000E+000	0.0000000E+000	-66.72	0.0000000E+000	0.0000000E+000	0.0000000E+000	66.72	0.430255	23.28	-5.22274e-06	-1.91566e-05	4440.52
4716.51	14.9203	43.8931	46.3597	-71.2259	55.6471	0.291683	-0.0752653	0.768782	0.689152	1	11	0.0100133	0.000215992	0	-9.86115e-05	0.00694219	0.0204228	0.0215705	71.2259	689.152	234.259	727.879	-18.7741	0.0000000E+000	0.0000000E+000	0.0000000E+000	18.7741	0.0000000E+000	0.0000000E+000	0.0000000E+000	-18.7741	0.0000000E+000	0.0000000E+000	0.0000000E+000	-71.2259	0.0000000E+000	0.0000000E+000	0.0000000E+000	71.2259	0.339923	18.7741	-1.72752e-05	-2.19536e-05	3875.4
2195.7	33.6853	85.6297	92.0171	-68.5261	56.8061	0.291677	-0.0753331	0.846491	0.733051	1	11	0.00996591	0.000108305	0	-0.000122389	0.00397836	0.0101132	0.0108675	68.5261	733.051	288.37	787.731	-21.4739	0.0000000E+000	0.0000000E+000	0.0000000E+000	21.4739	0.0000000E+000	0.0000000E+000	0.0000000E+000	-21.4739	0.0000000E+000	0.0000000E+000	0.0000000E+000	-68.5261	0.0000000E+000	0.0000000E+000	0.0000000E+000	68.5261	0.393384	21.4739	-1.42185e-05	-2.19729e-05	3871.82
1024.02	89.8345	146.434	171.794	-58.4717	57.7403	0.291681	-0.0752892	1.06138	0.771151	1	11	0.00964492	5.61424e-05	0	-0.000141547	0.00304388	0.00496165	0.00582093	58.4717	771.151	473.087	904.702	-31.5283	0.0000000E+000	0.0000000E+000	0.0000000E+000	31.5283	0.0000000E+000	0.0000000E+000	0.0000000E+000	-31.5283	0.0000000E+000	0.0000000E+000	0.0000000E+000	-58.4717	0.0000000E+000	0.0000000E+000	0.0000000E+000	58.4717	0.613482	31.5284	-9.60638e-06	-2.19604e-05	3874.14
476.984	203.161	184.104	274.169	-42.1827	58.6773	0.291676	-0.0752612	1.8124	0.817224	1	11	0.00957942	3.49398e-05	0	-0.000160739	0.00270274	0.00244921	0.00364738	42.1827	817.224	901.82	1217.02	-47.8173	0.0000000E+000	0.0000000E+000	0.0000000E+000	47.8173	0.0000000E+000	0.0000000E+000	0.0000000E+000	-47.8173	0.0000000E+000	0.0000000E+000	0.0000000E+000	-42.1827	0.0000000E+000	0.0000000E+000	0.0000000E+000	42.1827	1.10352	47.8173	-9.5813e-06	-2.19519e-05	3875.51
222.348	317.08	156.172	353.454	-26.2217	59.862	0.291704	-0.076157	4.58335	0.894798	1	12	0.0096078	2.71826e-05	0	-0.00018474	0.00253807	0.00125008	0.00282922	26.2217	894.798	1816.73	2025.13	-63.7783	0.0000000E+000	0.0000000E+000	0.0000000E+000	63.7783	0.0000000E+000	0.0000000E+000	0.0000000E+000	-63.7783	0.0000000E+000	0.0000000E+000	0.0000000E+000	-26.2217	0.0000000E+000	0.0000000E+000	0.0000000E+000	26.2217	2.03032	63.7783	-9.66158e-06	-2.22153e-05	3830.3
103.575	380.259	107.149	395.067	-15.7366	60.7979	0.291697	-0.0761217	14.341	1.0549	1	12	0.00956791	2.42184e-05	0	-0.000204218	0.00243634	0.000686506	0.00253121	15.7366	1054.9	3743.72	3889.51	-74.2634	0.0000000E+000	0.0000000E+000	0.0000000E+000	74.2634	0.0000000E+000	0.0000000E+000	0.0000000E+000	-74.2634	0.0000000E+000	0.0000000E+000	0.0000000E+000	-15.7366	0.0000000E+000	0.0000000E+000	0.0000000E+000	15.7366	3.5489	74.2634	-9.82541e-06	-2.22044e-05	3831.98
48.2849	411.743	78.0372	419.073	-10.7319	61.7423	0.291705	-0.0761292	42.2383	1.46464	1	12	0.00956928	2.28344e-05	0	-0.000223859	0.00234448	0.000444347	0.00238622	10.7319	1464.64	7727.79	7865.36	-79.2681	0.0000000E+000	0.0000000E+000	0.0000000E+000	79.2681	0.0000000E+000	0.0000000E+000	0.0000000E+000	-79.2681	0.0000000E+000	0.0000000E+000	0.0000000E+000	-10.7319	0.0000000E+000	0.0000000E+000	0.0000000E+000	10.7319	5.27624	79.2681	-1.00279e-05	-2.22073e-05	3831.72
22.482	435.248	70.4637	440.915	-9.19601	62.657	0.291694	-0.0760376	100.466	2.56591	1	12	0.00956933	2.17033e-05	0	-0.000242909	0.00223886	0.000362457	0.00226801	9.19601	2565.91	15849.4	16055.7	-80.804	0.0000000E+000	0.0000000E+000	0.0000000E+000	80.804	0.0000000E+000	0.0000000E+000	0.0000000E+000	-80.804	0.0000000E+000	0.0000000E+000	0.0000000E+000	-9.19601	0.0000000E+000	0.0000000E+000	0.0000000E+000	9.19601	6.17691	80.804	-8.81395e-06	-2.21797e-05	3836.19
10.4866	463.049	80.5626	470.005	-9.86968	63.5649	0.291693	-0.0760767	188.388	5.53495	1	12	0.0095613	2.0343e-05	0	-0.000261902	0.00209615	0.000364693	0.00212764	9.86968	5534.95	31813.2	32291.1	-80.1303	0.0000000E+000	0.0000000E+000	0.0000000E+000	80.1303	0.0000000E+000	0.0000000E+000	0.0000000E+000	-80.1303	0.0000000E+000	0.0000000E+000	0.0000000E+000	-9.86968	0.0000000E+000	0.0000000E+000	0.0000000E+000	9.86968	5.7477	80.1303	-9.455e-06	-2.21911e-05	3834.2
4.88281	508.455	100.711	518.333	-11.2037	64.395	0.291694	-0.0760093	323.648	12.2182	1	12	0.00956444	1.84523e-05	0	-0.000279113	0.00189249	0.000374851	0.00192926	11.2037	12218.2	61685.7	62884.1	-78.7963	0.0000000E+000	0.0000000E+000	0.0000000E+000	78.7963	0.0000000E+000	0.0000000E+000	0.0000000E+000	-78.7963	0.0000000E+000	0.0000000E+000	0.0000000E+000	-11.2037	0.0000000E+000	0.0000000E+000	0.0000000E+000	11.2037	5.04866	78.7963	-1.01833e-05	-2.21715e-05	3837.61
2.27637	577.484	99.2262	585.947	-9.74964	66.0346	0.291709	-0.0758761	704.613	20.2063	1	12	0.00956394	1.63222e-05	0	-0.000312866	0.00168199	0.000289008	0.00170664	9.74964	20206.3	117598	119322	-80.2504	0.0000000E+000	0.0000000E+000	0.0000000E+000	80.2504	0.0000000E+000	0.0000000E+000	0.0000000E+000	-80.2504	0.0000000E+000	0.0000000E+000	0.0000000E+000	-9.74964	0.0000000E+000	0.0000000E+000	0.0000000E+000	9.74964	5.81987	80.2504	-1.98161e-05	-2.21338e-05	3844.55
1.06148	628.49	65.2756	631.87	-5.92954	69.4466	0.291703	-0.0758157	2296.98	24.5134	1	12	0.00956353	1.51353e-05	0	-0.000384566	0.00157414	0.000163491	0.0015826	5.92954	24513.3	236021	237290	-84.0705	0.0000000E+000	0.0000000E+000	0.0000000E+000	84.0705	0.0000000E+000	0.0000000E+000	0.0000000E+000	-84.0705	0.0000000E+000	0.0000000E+000	0.0000000E+000	-5.92954	0.0000000E+000	0.0000000E+000	0.0000000E+000	5.92954	9.62825	84.0705	-4.26364e-05	-2.21157e-05	3847.53
0.494337	647.002	33.8234	647.885	-2.99254	76.6771	0.291707	-0.0757262	9518.75	25.9429	1	12	0.00956139	1.47578e-05	0	-0.000537713	0.00154138	8.05789e-05	0.00154348	2.99254	25942.9	496257	496934	-87.0075	0.0000000E+000	0.0000000E+000	0.0000000E+000	87.0075	0.0000000E+000	0.0000000E+000	0.0000000E+000	-87.0075	0.0000000E+000	0.0000000E+000	0.0000000E+000	-2.99254	0.0000000E+000	0.0000000E+000	0.0000000E+000	2.99254	19.1288	87.0075	-9.07184e-05	-2.20899e-05	3852.13
0.230321	652.221	16.0308	652.418	-1.40798	92.1038	0.291709	-0.0756288	43105.2	26.0249	1	12	0.0095645	1.46601e-05	0	-0.000860518	0.0015323	3.7662e-05	0.00153276	1.40798	26025	1.05884e+06	1.05916e+06	-88.592	0.0000000E+000	0.0000000E+000	0.0000000E+000	88.592	0.0000000E+000	0.0000000E+000	0.0000000E+000	-88.592	0.0000000E+000	0.0000000E+000	0.0000000E+000	-1.40798	0.0000000E+000	0.0000000E+000	0.0000000E+000	1.40798	40.6855	88.592	-0.000191156	-2.20616e-05	3857.12
0.107379	652.937	7.34044	652.979	-0.644102	125.106	0.291706	-0.0755302	201919	25.5166	1	12	0.0095629	1.4645e-05	0	-0.00154659	0.00153135	1.72157e-05	0.00153144	0.644102	25516.7	2.26972e+06	2.26986e+06	-89.3559	0.0000000E+000	0.0000000E+000	0.0000000E+000	89.3559	0.0000000E+000	0.0000000E+000	0.0000000E+000	-89.3559	0.0000000E+000	0.0000000E+000	0.0000000E+000	-0.644102	0.0000000E+000	0.0000000E+000	0.0000000E+000	0.644102	88.9507	89.3559	-0.000407547	-2.20326e-05	3862.12
0.0500352	653.645	3.32116	653.653	-0.291116	195.853	0.291697	-0.0754477	957756	24.7251	1	12	0.00956448	1.46323e-05	0	-0.00302588	0.00152984	7.7731e-06	0.00152986	0.291116	24725	4.86621e+06	4.86628e+06	-89.7089	0.0000000E+000	0.0000000E+000	0.0000000E+000	89.7089	0.0000000E+000	0.0000000E+000	0.0000000E+000	-89.7089	0.0000000E+000	0.0000000E+000	0.0000000E+000	-0.291116	0.0000000E+000	0.0000000E+000	0.0000000E+000	0.291116	196.812	89.7089	-0.000880675	-2.20079e-05	3866.22